        dNpi/dy       Tch[MeV]     dVdy[fm^3]       Vc[fm^3]         gammaS     K/pi_toGCE    Xi/pi_toGCE   phi/pi_toGCE     p/pi_toGCE Omega/pi_toGCE    La/pi_toGCE
              3       0.173144            7.2          11.52       0.762394         0.7304       0.298231        1.04315        1.02753      0.0976533       0.681475
        3.20365       0.172973        7.68877         12.302       0.763213       0.747891       0.320196        1.04031        1.02574       0.109506       0.701505
        3.42113       0.172802        8.21072        13.1371       0.764084       0.764748       0.342833        1.03759        1.02403       0.122431       0.720845
        3.65337       0.172631         8.7681         14.029       0.765011       0.780891       0.366026        1.03498        1.02238        0.13645       0.739405
        3.90138       0.172461        9.36332        14.9813       0.765997       0.796253       0.389649         1.0325        1.02082       0.151569       0.757108
        4.16623        0.17229        9.99894        15.9983       0.767045       0.810784       0.413568        1.03017        1.01935       0.167779       0.773895
        4.44905       0.172119        10.6777        17.0844       0.768159       0.824449       0.437643        1.02797        1.01796       0.185058       0.789724
        4.75107       0.171948        11.4026        18.2441       0.769342       0.837231       0.461735        1.02593        1.01666       0.203365       0.804574
         5.0736       0.171777        12.1766        19.4826         0.7706       0.849129       0.485707        1.02402        1.01545       0.222644        0.81844
        5.41802       0.171607        13.0032        20.8052       0.771935       0.860159        0.50943        1.02226        1.01434       0.242825       0.831336
        5.78582       0.171436         13.886        22.2175       0.773352       0.870348       0.532785        1.02063         1.0133       0.263823        0.84329
        6.17858       0.171265        14.8286        23.7258       0.774856       0.879737       0.555664        1.01914        1.01235        0.28554       0.854342
        6.59801       0.171094        15.8352        25.3364       0.776451       0.888373       0.577976        1.01776        1.01147       0.307871       0.864544
        7.04592       0.170924        16.9102        27.0563       0.778142       0.896308       0.599643         1.0165        1.01066       0.330702       0.873951
        7.52423       0.170753        18.0581         28.893       0.779933       0.903599       0.620605        1.01534        1.00992       0.353915       0.882624
        8.03501       0.170582         19.284        30.8544        0.78183       0.910301       0.640816        1.01428        1.00924        0.37739       0.890622
        8.58046       0.170411        20.5931         32.949       0.783838       0.916468       0.660244         1.0133        1.00861       0.401008       0.898004
        9.16294       0.170241        21.9911        35.1857       0.785961       0.922151        0.67887         1.0124        1.00803       0.424653       0.904827
        9.78496        0.17007        23.4839        37.5743       0.788206       0.927397       0.696688        1.01157         1.0075       0.448217       0.911141
        10.4492       0.169899        25.0781         40.125       0.790577       0.932248       0.713698         1.0108        1.00701       0.471594       0.916994
        11.1586       0.169728        26.7805        42.8488        0.79308       0.936742        0.72991        1.01009        1.00655       0.494693       0.922428
         11.916       0.169557        28.5985        45.7576        0.79572       0.940912       0.745338        1.00944        1.00612       0.517428       0.927481
         12.725       0.169387        30.5399        48.8639       0.798501       0.944788       0.760003        1.00883        1.00573       0.539725       0.932184
        13.5888       0.169216        32.6131         52.181        0.80143       0.948395       0.773928        1.00826        1.00536        0.56152       0.936567
        14.5113       0.169045         34.827        55.7232        0.80451       0.951756       0.787136        1.00773        1.00502       0.582759       0.940657
        15.4964       0.168874        37.1912         59.506       0.807747        0.95489       0.799655        1.00724         1.0047       0.603398       0.944476
        16.5483       0.168704         39.716        63.5455       0.811145       0.957815       0.811511        1.00678        1.00441         0.6234       0.948043
        17.6717       0.168533        42.4121        67.8593       0.814707       0.960547       0.822733        1.00636        1.00413        0.64274       0.951379
        18.8713       0.168362        45.2912        72.4659       0.818436         0.9631       0.833346        1.00596        1.00387       0.661396       0.954498
        20.1524       0.168191        48.3658        77.3852       0.822336       0.965487       0.843378        1.00559        1.00363       0.679357       0.957417
        21.5204       0.168021        51.6491        82.6385       0.826408       0.967719       0.852856        1.00524         1.0034       0.696614       0.960148
        22.9813        0.16785        55.1552        88.2484       0.830654       0.969807       0.861805        1.00491        1.00319       0.713166       0.962705
        24.5414       0.167679        58.8994        94.2391       0.835073       0.971761        0.87025        1.00461        1.00299       0.729014       0.965099
        26.2074       0.167508        62.8978        100.636       0.839665        0.97359       0.878214        1.00432        1.00281       0.744164       0.967341
        27.9865       0.167338        67.1676        107.468       0.844427       0.975301       0.885723        1.00405        1.00263       0.758625        0.96944
        29.8863       0.167167        71.7272        114.764       0.849357       0.976902       0.892797         1.0038        1.00247        0.77241       0.971406
        31.9152       0.166996        76.5964        122.554       0.854449       0.978401       0.899458        1.00357        1.00232       0.785531       0.973246
        34.0817       0.166825        81.7961        130.874       0.859697       0.979803       0.905728        1.00335        1.00217       0.798005       0.974969
        36.3953       0.166654        87.3488        139.758       0.865092       0.981116       0.911625        1.00314        1.00204       0.809849       0.976582
         38.866       0.166484        93.2785        149.246       0.870625       0.982343        0.91717        1.00295        1.00191        0.82108       0.978091
        41.5044       0.166313        99.6106        159.377       0.876283       0.983491       0.922379        1.00277         1.0018       0.831719       0.979504
        44.3219       0.166142        106.373        170.196       0.882052       0.984565       0.927272         1.0026        1.00169       0.841786       0.980826
        47.3307       0.165971        113.594         181.75       0.887916       0.985568       0.931864        1.00244        1.00158         0.8513       0.982062
        50.5438       0.165801        121.305        194.088       0.893857       0.986506       0.936172        1.00229        1.00149       0.860283       0.983218
        53.9749        0.16563         129.54        207.264       0.899854       0.987383        0.94021        1.00215        1.00139       0.868757       0.984298
         57.639       0.165459        138.334        221.334       0.905884       0.988201       0.943994        1.00202        1.00131       0.876741       0.985308
        61.5518       0.165288        147.724        236.359       0.911923       0.988965       0.947538         1.0019        1.00123       0.884258       0.986252
        65.7302       0.165118        157.752        252.404       0.917945       0.989678       0.950855        1.00178        1.00115       0.891329       0.987133
        70.1922       0.164947        168.461        269.538       0.923922       0.990343       0.953958        1.00167        1.00108       0.897974       0.987955
        74.9572       0.164776        179.897        287.836       0.929824       0.990963        0.95686        1.00157        1.00102       0.904214       0.988723
        80.0457       0.164605         192.11        307.375       0.935623       0.991541       0.959572        1.00148        1.00096       0.910069       0.989439
        85.4795       0.164434        205.151        328.241       0.941287        0.99208       0.962106        1.00139         1.0009        0.91556       0.990108
        91.2823       0.164264        219.077        350.524       0.946787       0.992582       0.964473         1.0013        1.00084       0.920706       0.990731
        97.4789       0.164093        233.949        374.319       0.952092        0.99305       0.966683        1.00122        1.00079       0.925526       0.991312
        104.096       0.163922        249.831         399.73       0.957175       0.993486       0.968745        1.00115        1.00074       0.930038       0.991854
        111.163       0.163751        266.791        426.865       0.962009       0.993892        0.97067        1.00108         1.0007       0.934261        0.99236
        118.709       0.163581        284.902        455.843        0.96657        0.99427       0.972466        1.00102        1.00066       0.938212       0.992831
        126.768        0.16341        304.242        486.787       0.970838       0.994622       0.974142        1.00095        1.00062       0.941908        0.99327
        135.373       0.163239        324.895        519.833       0.974796        0.99495       0.975706         1.0009        1.00058       0.945365        0.99368
        144.563       0.163068        346.951        555.121       0.978431       0.995256       0.977167        1.00084        1.00055       0.948599       0.994062
        154.376       0.162898        370.504        592.806       0.981736       0.995541        0.97853        1.00079        1.00051       0.951625       0.994419
        164.856       0.162727        395.655        633.048       0.984709       0.995807       0.979804        1.00075        1.00048       0.954457       0.994752
        176.047       0.162556        422.514        676.022       0.987351       0.996055       0.980994         1.0007        1.00045       0.957107       0.995063
        187.998       0.162385        451.196        721.914        0.98967       0.996286       0.982107        1.00066        1.00043       0.959589       0.995353
        200.761       0.162215        481.825        770.921       0.991679       0.996503       0.983148        1.00062         1.0004       0.961914       0.995625
        214.389       0.162044        514.534        823.254       0.993396       0.996705       0.984122        1.00058        1.00038       0.964094       0.995879
        228.943       0.161873        549.463        879.141       0.994839       0.996894       0.985034        1.00055        1.00036       0.966137       0.996117
        244.485       0.161702        586.763        938.821       0.996034       0.997072       0.985889        1.00052        1.00033       0.968055        0.99634
        261.081       0.161531        626.595        1002.55       0.997007       0.997238       0.986691        1.00049        1.00031       0.969855       0.996549
        278.805       0.161361        669.131        1070.61       0.997783       0.997394       0.987444        1.00046         1.0003       0.971545       0.996746
        297.731        0.16119        714.555        1143.29       0.998392        0.99754        0.98815        1.00043        1.00028       0.973134        0.99693
        317.943       0.161019        763.062         1220.9       0.998858       0.997677       0.988814        1.00041        1.00026       0.974629       0.997102
        339.526       0.160848        814.862        1303.78       0.999208       0.997807       0.989439        1.00038        1.00025       0.976037       0.997265
        362.575       0.160678        870.179        1392.29       0.999464       0.997928       0.990027        1.00036        1.00023       0.977364       0.997418
        387.188       0.160507        929.251         1486.8       0.999647       0.998043       0.990582        1.00034        1.00022       0.978618       0.997563
        413.472       0.160336        992.333        1587.73       0.999774       0.998152       0.991107        1.00032        1.00021       0.979804       0.997699
         441.54       0.160165         1059.7        1695.51       0.999859       0.998254       0.991604         1.0003        1.00019       0.980927       0.997828
        471.514       0.159995        1131.63        1810.61       0.999915       0.998352       0.992075        1.00028        1.00018       0.981993       0.997951
        503.523       0.159824        1208.45        1933.53       0.999951       0.998444       0.992523        1.00027        1.00017       0.983006       0.998067
        537.704       0.159653        1290.49        2064.78       0.999972       0.998532       0.992948        1.00025        1.00016       0.983969       0.998177
        574.206       0.159482        1378.09        2204.95       0.999985       0.998616       0.993352        1.00023        1.00015       0.984885       0.998282
        613.186       0.159311        1471.65        2354.63       0.999992       0.998695       0.993737        1.00022        1.00014       0.985756       0.998382
        654.812       0.159141        1571.55        2514.48       0.999996       0.998771       0.994101        1.00021        1.00013       0.986582       0.998476
        699.263        0.15897        1678.23        2685.17       0.999998       0.998842       0.994446        1.00019        1.00013       0.987364       0.998566
        746.732       0.158799        1792.16        2867.45       0.999999        0.99891       0.994772        1.00018        1.00012       0.988103        0.99865
        797.424       0.158628        1913.82        3062.11              1       0.998973       0.995077        1.00017        1.00011       0.988797       0.998729
        851.557       0.158458        2043.74        3269.98              1       0.999032       0.995364        1.00016         1.0001       0.989446       0.998803
        909.365       0.158287        2182.47        3491.96              1       0.999088        0.99563        1.00015         1.0001       0.990051       0.998872
        971.096       0.158116        2330.63        3729.01              1       0.999139       0.995877        1.00014        1.00009       0.990611       0.998936
        1037.02       0.157945        2488.85        3982.15              1       0.999186       0.996104        1.00013        1.00009       0.991128       0.998995
        1107.42       0.157775         2657.8        4252.48              1       0.999229       0.996313        1.00013        1.00008       0.991602       0.999049
        1182.59       0.157604        2838.22        4541.16              1       0.999269       0.996504        1.00012        1.00008       0.992036       0.999098
        1262.87       0.157433         3030.9        4849.43              1       0.999305       0.996679        1.00011        1.00007       0.992433       0.999144
         1348.6       0.157262        3236.65        5178.63              1       0.999338       0.996838        1.00011        1.00007       0.992796       0.999185
        1440.15       0.157091        3456.36        5530.18              1       0.999369       0.996985         1.0001        1.00007       0.993129       0.999223
        1537.92       0.156921           3691         5905.6              1       0.999397        0.99712         1.0001        1.00006       0.993437       0.999258
        1642.32        0.15675        3941.56         6306.5              1       0.999423       0.997246        1.00009        1.00006       0.993723        0.99929
        1753.81       0.156579        4209.13        6734.61              1       0.999447       0.997364        1.00009        1.00006       0.993992       0.999321
        1872.86       0.156408        4494.87        7191.79              1        0.99947       0.997476        1.00008        1.00005       0.994247        0.99935
           2000       0.156238           4800           7680              1       0.999493       0.997584        1.00008        1.00005       0.994494       0.999378
